Acq. time (s)=	10
Accumulations=	60
Range=	Off
Autofocus=	Off
AutoExposure=	Off
Spike filter=	Multiple accum.
Delay time (s)=	0
Binning=	1
Readout mode=	Signal
DeNoise=	Standard
ICS correction=	On
Dark correction=	Off
Inst. Process=	Off
Instrument=	LabRAM S3000
Detector=	Synapse
Objective=	x100
Grating=	1800
ND Filter=	0.1%
Laser (nm)=	632.81 
Spectro (cm-¹)=	520.983
Slit=	100.021
Hole=	199.981
Microscope=	Principal
StageXY=	Märzhauser
StageZ=	Märzhauser
X (µm)=	-1731.2
Y (µm)=	0
Z (µm)=	-3.3
Project=	
Sample=	
Site=	
Title=	SI_pw_0p1
Remark=	
Date=	05.06.2019 15:29
Operator=	
Acquired=	05.06.2019 15:29:18
358.031	1.59464
358.356	1.63648
358.682	1.68736
359.007	1.71402
359.333	1.70944
359.657	1.69587
359.982	1.68586
360.308	1.67315
360.633	1.65665
360.957	1.64525
361.283	1.63755
361.608	1.62696
361.932	1.61053
362.258	1.59702
362.583	1.58425
362.907	1.57356
363.231	1.55734
363.557	1.54453
363.882	1.52932
364.206	1.52009
364.532	1.51213
364.856	1.50258
365.181	1.49177
365.505	1.47968
365.831	1.46036
366.155	1.44766
366.48	1.43784
366.804	1.43006
367.13	1.42735
367.454	1.42648
367.778	1.41622
368.102	1.40548
368.427	1.39462
368.752	1.38729
369.077	1.37758
369.401	1.37165
369.725	1.364
370.049	1.35848
370.373	1.35174
370.699	1.34189
371.023	1.33328
371.347	1.3238
371.671	1.31479
371.995	1.30834
372.319	1.30436
372.643	1.29907
372.967	1.29494
373.293	1.29085
373.617	1.28448
373.941	1.28068
374.265	1.28542
374.589	1.28376
374.913	1.2809
375.237	1.27579
375.561	1.26805
375.885	1.25958
376.208	1.25247
376.532	1.24468
376.856	1.23677
377.18	1.2282
377.504	1.21821
377.828	1.2138
378.152	1.20689
378.475	1.19838
378.799	1.19331
379.123	1.19222
379.447	1.19106
379.771	1.19236
380.094	1.19337
380.418	1.19406
380.742	1.1942
381.065	1.19079
381.389	1.18337
381.713	1.17717
382.036	1.1677
382.36	1.16128
382.684	1.1521
383.007	1.14636
383.331	1.14408
383.655	1.13923
383.978	1.13788
384.3	1.13284
384.624	1.12885
384.947	1.12666
385.271	1.12436
385.594	1.11914
385.918	1.11814
386.241	1.11324
386.565	1.10574
386.887	1.07953
387.21	1.08113
387.534	1.07912
387.857	1.0719
388.181	1.06297
388.504	1.05225
388.826	1.04667
389.149	1.04424
389.473	1.04185
389.796	1.04409
390.119	1.05799
390.441	1.0667
390.764	1.0751
391.088	1.08189
391.411	1.08683
391.733	1.09361
392.056	1.09341
392.379	1.09359
392.702	1.08597
393.024	1.07903
393.347	1.07687
393.671	1.0683
393.992	1.05746
394.315	1.04754
394.639	1.03968
394.962	1.02991
395.283	1.01973
395.606	1.00682
395.929	0.989044
396.251	0.978944
396.574	0.971097
396.897	0.999346
397.219	1.00355
397.542	1.0091
397.865	1.01701
398.186	1.02012
398.509	1.02293
398.831	1.02351
399.154	1.02283
399.477	1.02369
399.798	1.02234
400.121	1.01872
400.442	1.01427
400.765	1.01111
401.088	1.00368
401.41	0.99703
401.732	0.990739
402.054	0.980553
402.377	0.971486
402.698	0.964593
403.021	0.961193
403.342	0.959033
403.665	0.955637
403.986	0.955926
404.309	0.957551
404.63	0.962144
404.953	0.967848
405.274	0.969125
405.597	0.970776
405.918	0.972568
406.241	0.979912
406.562	0.988356
406.884	0.992421
407.206	0.991327
407.528	0.988861
407.849	0.982886
408.172	0.971068
408.493	0.967963
408.814	0.964282
409.137	0.960285
409.458	0.954387
409.78	0.95289
410.101	0.947997
410.424	0.943435
410.745	0.930663
411.066	0.921476
411.388	0.915046
411.709	0.929498
412.03	0.932374
412.352	0.937175
412.673	0.941907
412.994	0.944847
413.317	0.949925
413.637	0.955126
413.958	0.967569
414.281	0.97529
414.602	0.980725
414.922	0.983666
415.245	0.982278
415.565	0.979721
415.886	0.981445
416.208	0.985431
416.529	0.988873
416.85	0.988167
417.171	0.984297
417.493	0.97853
417.814	0.984367
418.134	0.988601
418.455	0.993486
418.777	0.987983
419.098	0.984859
419.418	0.984884
419.739	0.98651
420.06	0.988069
420.382	0.992398
420.702	0.995981
421.023	0.994138
421.344	1.00168
421.664	1.00961
421.986	1.01591
422.307	1.02585
422.627	1.03416
422.948	1.04036
423.268	1.04579
423.589	1.05131
423.909	1.05755
424.231	1.06537
424.551	1.07328
424.872	1.07173
425.192	1.06762
425.513	1.06381
425.833	1.06014
426.153	1.05511
426.474	1.05096
426.794	1.06611
427.114	1.06844
427.436	1.0726
427.756	1.07231
428.077	1.06965
428.397	1.07374
428.717	1.07662
429.037	1.08322
429.358	1.09502
429.678	1.10001
429.998	1.09887
430.318	1.09164
430.639	1.08596
430.959	1.07264
431.279	1.06582
431.599	1.06337
431.919	1.06576
432.239	1.06555
432.559	1.05791
432.879	1.0474
433.199	1.04052
433.52	1.02348
433.838	0.995573
434.158	0.996919
434.478	0.984203
434.798	0.970433
435.118	0.962195
435.438	0.957335
435.758	0.960552
436.078	0.958545
436.398	0.962151
436.718	0.970502
437.038	0.970335
437.356	0.971455
437.676	0.971363
437.996	0.980048
438.316	0.994505
438.636	0.993745
438.956	0.990091
439.274	0.971298
439.594	0.980059
439.914	0.978961
440.233	0.959414
440.553	0.938002
440.873	0.907156
441.191	0.889826
441.511	0.887729
441.831	0.894976
442.15	0.917336
442.469	0.940128
442.788	0.951285
443.108	0.943089
443.428	0.929227
443.746	0.908971
444.065	0.904654
444.385	0.904393
444.705	0.90825
445.023	0.917115
445.342	0.921919
445.662	0.92944
445.98	0.935095
446.3	0.938846
446.619	0.944111
446.939	0.939465
447.257	0.928307
447.576	0.929406
447.896	0.935327
448.214	0.943461
448.533	0.948214
448.852	0.950064
449.17	0.950579
449.49	0.948122
449.808	0.94174
450.127	0.936783
450.447	0.924727
450.764	0.910809
451.084	0.901359
451.402	0.891567
451.721	0.887159
452.04	0.884625
452.358	0.887567
452.677	0.892199
452.995	0.892464
453.314	0.880359
453.632	0.885499
453.951	0.885473
454.269	0.874679
454.588	0.870008
454.908	0.868842
455.225	0.866609
455.544	0.864792
455.862	0.86463
456.181	0.866761
456.499	0.874233
456.818	0.881399
457.136	0.885783
457.453	0.894057
457.772	0.905807
458.09	0.919195
458.409	0.929288
458.726	0.939093
459.045	0.93154
459.363	0.926906
459.682	0.924713
460	0.917145
460.317	0.909202
460.636	0.903055
460.953	0.898732
461.272	0.896176
461.59	0.893026
461.907	0.890975
462.226	0.886112
462.544	0.892784
462.862	0.892783
463.18	0.883131
463.497	0.888373
463.816	0.888469
464.133	0.888115
464.451	0.890834
464.769	0.892562
465.087	0.890179
465.404	0.892136
465.723	0.890601
466.04	0.894466
466.357	0.897061
466.675	0.901819
466.993	0.90367
467.31	0.902684
467.628	0.896327
467.946	0.886871
468.263	0.8847
468.581	0.882311
468.898	0.87874
469.216	0.873982
469.533	0.870584
469.851	0.86752
470.168	0.869692
470.485	0.871006
470.803	0.87869
471.12	0.873033
471.437	0.851547
471.754	0.83902
472.071	0.851254
472.39	0.862772
472.707	0.862179
473.024	0.863225
473.341	0.863855
473.658	0.86415
473.975	0.863693
474.292	0.864632
474.61	0.870496
474.927	0.879207
475.244	0.886635
475.561	0.891649
475.878	0.899661
476.194	0.897071
476.511	0.898974
476.828	0.896065
477.145	0.898639
477.463	0.896866
477.78	0.896206
478.097	0.893688
478.413	0.892158
478.73	0.888336
479.047	0.883054
479.364	0.881401
479.68	0.878524
479.997	0.877627
480.314	0.873499
480.63	0.876186
480.947	0.875467
481.264	0.875488
481.58	0.876337
481.897	0.874146
482.214	0.871947
482.53	0.877114
482.847	0.883736
483.163	0.89156
483.48	0.897122
483.796	0.903412
484.113	0.905773
484.429	0.90489
484.745	0.902595
485.061	0.899284
485.377	0.897301
485.694	0.893376
486.01	0.888284
486.327	0.880818
486.643	0.873432
486.96	0.869863
487.276	0.874986
487.591	0.87896
487.907	0.884987
488.224	0.895263
488.54	0.908448
488.856	0.91894
489.173	0.928874
489.489	0.9354
489.804	0.939195
490.12	0.941131
490.436	0.940639
490.753	0.939386
491.069	0.937384
491.384	0.930209
491.7	0.923517
492.016	0.914349
492.332	0.884311
492.648	0.895038
492.963	0.884626
493.279	0.875094
493.595	0.873918
493.912	0.877664
494.226	0.879619
494.542	0.870637
494.858	0.864557
495.173	0.869642
495.489	0.873583
495.805	0.875192
496.121	0.849388
496.436	0.895136
496.752	0.897405
497.068	0.897524
497.382	0.897517
497.698	0.895893
498.014	0.882947
498.329	0.862958
498.645	0.854836
498.961	0.851119
499.275	0.851286
499.591	0.85303
499.905	0.848633
500.221	0.845653
500.537	0.842889
500.852	0.842234
501.167	0.842878
501.482	0.842455
501.798	0.845585
502.113	0.8485
502.428	0.850884
502.743	0.852877
503.058	0.856879
503.373	0.864544
503.688	0.871728
504.003	0.872713
504.318	0.871539
504.633	0.86707
504.948	0.865209
505.263	0.858526
505.577	0.850066
505.893	0.843107
506.207	0.835796
506.523	0.833326
506.837	0.830959
507.153	0.831068
507.467	0.834186
507.782	0.838874
508.096	0.843251
508.412	0.847748
508.726	0.852389
509.042	0.85904
509.356	0.866388
509.67	0.874776
509.985	0.882767
510.299	0.8876
510.615	0.890701
510.929	0.891147
511.242	0.891813
511.558	0.891292
511.872	0.890871
512.187	0.888149
512.501	0.887393
512.815	0.882872
513.13	0.8805
513.444	0.874612
513.758	0.868074
514.073	0.860058
514.387	0.854161
514.701	0.849766
515.016	0.848987
515.33	0.858275
515.644	0.874856
515.958	0.874414
516.273	0.876249
516.587	0.885602
516.9	0.892027
517.216	0.899684
517.529	0.902028
517.843	0.90786
518.157	0.915485
518.472	0.923386
518.786	0.933427
519.099	0.944298
519.413	0.960371
519.726	0.966202
520.042	0.962986
520.355	0.940557
520.669	0.932521
520.982	0.923704
521.296	0.912226
521.611	0.899483
521.924	0.883336
522.238	0.871174
522.551	0.861502
522.865	0.854595
523.178	0.848501
523.493	0.843546
523.807	0.841585
524.12	0.842283
524.434	0.843977
524.747	0.846041
525.06	0.848314
525.374	0.850289
525.687	0.852489
526.001	0.85448
526.314	0.85923
526.629	0.861057
526.942	0.85986
527.255	0.857831
527.569	0.857692
527.882	0.856118
528.195	0.854459
528.509	0.853593
528.822	0.852796
529.135	0.852984
529.448	0.850632
529.762	0.847498
530.075	0.842521
530.388	0.839415
530.701	0.836087
531.014	0.834182
531.327	0.833575
531.641	0.833447
531.954	0.834467
532.267	0.836843
532.58	0.838004
532.893	0.837787
533.206	0.838771
533.518	0.839945
533.831	0.842768
534.144	0.845028
534.457	0.854553
534.77	0.854185
535.083	0.853626
535.396	0.846632
535.709	0.83844
536.022	0.83122
536.335	0.826005
536.646	0.818367
536.959	0.815546
537.272	0.813756
537.585	0.812427
537.898	0.812443
538.211	0.812355
538.522	0.817801
538.835	0.819784
539.148	0.823915
539.461	0.830834
539.773	0.83473
540.085	0.839263
540.398	0.841427
540.71	0.84647
541.023	0.850532
541.336	0.851913
541.647	0.852508
541.96	0.851796
542.273	0.851182
542.585	0.849908
542.897	0.84517
543.209	0.839223
543.522	0.83584
543.833	0.829501
544.146	0.825722
544.458	0.823829
544.771	0.823689
545.082	0.827622
545.395	0.833573
545.707	0.83685
546.018	0.841088
546.331	0.842289
546.643	0.842892
546.955	0.842696
547.267	0.842432
547.58	0.836071
547.891	0.830971
548.203	0.821971
548.514	0.814113
548.827	0.807091
549.139	0.808157
549.45	0.804332
549.762	0.80154
550.073	0.798257
550.386	0.789424
550.698	0.780373
551.009	0.775705
551.321	0.786358
551.632	0.788158
551.945	0.794852
552.255	0.797306
552.568	0.802562
552.879	0.806224
553.191	0.809162
553.502	0.810156
553.814	0.816059
554.125	0.823066
554.437	0.832406
554.748	0.838389
555.06	0.841875
555.371	0.843585
555.683	0.844499
555.993	0.8448
556.306	0.839154
556.616	0.835651
556.928	0.828123
557.239	0.824228
557.55	0.822843
557.862	0.821437
558.172	0.820373
558.484	0.820618
558.795	0.817114
559.106	0.811824
559.418	0.810727
559.728	0.813004
560.04	0.811295
560.351	0.806507
560.661	0.803518
560.973	0.803928
561.284	0.805206
561.594	0.809939
561.906	0.813984
562.217	0.813207
562.527	0.811901
562.839	0.808505
563.149	0.806082
563.46	0.803479
563.772	0.799085
564.082	0.799999
564.392	0.792362
564.703	0.790414
565.015	0.797418
565.325	0.799266
565.635	0.801534
565.946	0.798962
566.257	0.792805
566.568	0.788846
566.878	0.787078
567.188	0.788133
567.5	0.788382
567.81	0.788839
568.12	0.788369
568.43	0.788656
568.741	0.79166
569.052	0.791849
569.362	0.792648
569.673	0.790664
569.983	0.788659
570.293	0.785976
570.603	0.782228
570.915	0.776543
571.225	0.773382
571.535	0.768187
571.845	0.763004
572.155	0.756144
572.465	0.752003
572.775	0.762147
573.085	0.777123
573.395	0.779092
573.706	0.777974
574.016	0.774806
574.326	0.777089
574.636	0.783167
574.946	0.794735
575.256	0.80512
575.566	0.814476
575.876	0.816009
576.186	0.819835
576.496	0.821979
576.806	0.820605
577.116	0.8167
577.426	0.818186
577.735	0.811169
578.045	0.804444
578.355	0.79941
578.665	0.79552
578.975	0.791836
579.284	0.790917
579.594	0.789944
579.904	0.785458
580.214	0.778165
580.523	0.774875
580.833	0.774824
581.143	0.77735
581.452	0.784087
581.761	0.790723
582.07	0.794132
582.38	0.798902
582.69	0.79589
582.999	0.788734
583.309	0.775326
583.618	0.785621
583.928	0.781574
584.238	0.786866
584.546	0.792964
584.855	0.794637
585.165	0.799957
585.474	0.80416
585.784	0.806979
586.093	0.809046
586.401	0.806877
586.711	0.803228
587.02	0.797676
587.33	0.787476
587.639	0.772927
587.947	0.765014
588.257	0.756702
588.566	0.754419
588.876	0.752771
589.183	0.75342
589.493	0.759406
589.802	0.765416
590.112	0.770894
590.419	0.777962
590.729	0.789586
591.038	0.79385
591.347	0.79511
591.655	0.796343
591.964	0.796045
592.274	0.793509
592.582	0.792572
592.891	0.781148
593.2	0.777359
593.508	0.781896
593.817	0.792262
594.126	0.794596
594.434	0.786963
594.743	0.784719
595.052	0.790956
595.36	0.796189
595.669	0.794559
595.977	0.794548
596.286	0.795126
596.595	0.796909
596.902	0.796597
597.211	0.797837
597.519	0.79988
597.828	0.802343
598.136	0.801795
598.445	0.802499
598.754	0.800422
599.061	0.79873
599.37	0.800137
599.678	0.800851
599.987	0.800762
600.294	0.802398
600.603	0.80139
600.911	0.802557
601.219	0.801639
601.527	0.79952
601.836	0.8021
602.143	0.796849
602.452	0.786943
602.759	0.780525
603.068	0.776947
603.376	0.786861
603.683	0.786608
603.992	0.786137
604.299	0.783133
604.608	0.777434
604.915	0.768171
605.224	0.758944
605.531	0.7533
605.839	0.747979
606.147	0.741651
606.454	0.739318
606.763	0.743313
607.07	0.743316
607.378	0.74287
607.686	0.744066
607.993	0.745307
608.301	0.743781
608.609	0.746744
608.916	0.747636
609.224	0.752868
609.532	0.758581
609.839	0.765709
610.146	0.7742
610.455	0.781948
610.762	0.78812
611.069	0.781477
611.376	0.783591
611.685	0.787326
611.992	0.788281
612.299	0.786634
612.606	0.785216
612.914	0.779271
613.221	0.771663
613.528	0.765099
613.835	0.756773
614.143	0.747975
614.45	0.742846
614.757	0.739403
615.064	0.736286
615.371	0.737236
615.679	0.74471
615.986	0.740666
616.293	0.732588
616.6	0.721907
616.907	0.710444
617.214	0.701657
617.522	0.708576
617.829	0.711597
618.135	0.723945
618.442	0.736924
618.749	0.744631
619.056	0.755107
619.362	0.766567
619.669	0.77765
619.976	0.783719
620.284	0.780729
620.591	0.779182
620.897	0.778307
621.204	0.770356
621.511	0.762681
621.817	0.755698
622.124	0.748906
622.43	0.748646
622.737	0.749626
623.044	0.750138
623.35	0.759184
623.657	0.76367
623.963	0.765952
624.27	0.764759
624.576	0.764671
624.883	0.762949
625.189	0.760846
625.496	0.761214
625.802	0.763336
626.109	0.766376
626.415	0.767893
626.722	0.767467
627.028	0.767379
627.335	0.765573
627.641	0.762354
627.946	0.760301
628.252	0.756493
628.559	0.753654
628.865	0.750598
629.172	0.744997
629.478	0.741494
629.784	0.74092
630.09	0.742187
630.397	0.747068
630.702	0.751941
631.008	0.756642
631.314	0.766493
631.62	0.775948
631.927	0.782703
632.233	0.785886
632.538	0.785044
632.844	0.779012
633.15	0.77349
633.456	0.758771
633.762	0.738112
634.067	0.715454
634.373	0.705464
634.679	0.699514
634.985	0.695483
635.29	0.703925
635.596	0.711643
635.902	0.72048
636.208	0.724689
636.513	0.731648
636.819	0.736046
637.125	0.74737
637.431	0.758597
637.736	0.766272
638.042	0.776739
638.348	0.781936
638.652	0.780309
638.958	0.777717
639.264	0.776712
639.569	0.773489
639.875	0.764772
640.18	0.767932
640.485	0.739812
640.791	0.754288
641.097	0.755531
641.401	0.752301
641.707	0.749937
642.011	0.747265
642.317	0.745037
642.623	0.742341
642.927	0.740638
643.233	0.73829
643.537	0.73296
643.843	0.71924
644.148	0.723612
644.453	0.72905
644.759	0.740434
645.063	0.74558
645.369	0.748854
645.673	0.753218
645.979	0.755777
646.283	0.757009
646.589	0.757638
646.893	0.758259
647.199	0.762725
647.503	0.764255
647.808	0.767413
648.113	0.771085
648.418	0.773232
648.722	0.772215
649.028	0.769378
649.332	0.75929
649.636	0.750984
649.942	0.743386
650.246	0.735162
650.551	0.72125
650.855	0.710653
651.159	0.699591
651.465	0.695902
651.769	0.694197
652.074	0.697258
652.378	0.700859
652.682	0.707131
652.988	0.714475
653.292	0.724182
653.596	0.729431
653.901	0.73611
654.205	0.743542
654.51	0.751599
654.814	0.754884
655.118	0.755213
655.422	0.754071
655.727	0.753936
656.031	0.75704
656.335	0.753018
656.64	0.74738
656.944	0.741398
657.248	0.740078
657.551	0.736282
657.857	0.729873
658.16	0.732303
658.464	0.725275
658.768	0.718315
659.073	0.715111
659.377	0.712697
659.681	0.708263
659.984	0.707286
660.289	0.708414
660.593	0.717793
660.897	0.712785
661.2	0.709603
661.504	0.710562
661.808	0.715358
662.113	0.723602
662.416	0.730667
662.72	0.730934
663.023	0.739299
663.327	0.74645
663.63	0.751663
663.934	0.747182
664.239	0.7485
664.542	0.74886
664.846	0.747333
665.149	0.745632
665.453	0.743587
665.756	0.744174
666.06	0.742489
666.363	0.70816
666.667	0.746323
666.97	0.745463
667.274	0.743567
667.577	0.742276
667.88	0.73344
668.184	0.729299
668.487	0.723579
668.79	0.729373
669.094	0.73887
669.397	0.751669
669.7	0.7504
670.004	0.749799
670.307	0.75163
670.61	0.751169
670.914	0.747872
671.217	0.742865
671.52	0.737763
671.823	0.733581
672.126	0.733003
672.43	0.729846
672.733	0.732835
673.036	0.733221
673.339	0.728224
673.642	0.727689
673.945	0.726093
674.247	0.725444
674.55	0.723121
674.853	0.721119
675.157	0.718732
675.46	0.714573
675.763	0.711649
676.066	0.710077
676.369	0.703356
676.67	0.697124
676.973	0.691075
677.276	0.696812
677.579	0.692024
677.882	0.682111
678.184	0.682108
678.487	0.694734
678.79	0.716343
679.093	0.719082
